Folder: y3_DSSC/plot_datasets/graph-14_Nov/UV-Vis_SentiGlass

File: SentiGlass_14Nov_DC2_01.txt
Batch	SentiGlass_14Nov006.sre
Evolution 600 288002	100%T Baseline Correction
Sample001 Cycle01	14/11/2022 10:56:23AM
nm	A
200.00	XXX.XXX
201.00	XXX.XXX
202.00	XXX.XXX
203.00	XXX.XXX
204.00	XXX.XXX
205.00	XXX.XXX
206.00	XXX.XXX
207.00	XXX.XXX
208.00	XXX.XXX
209.00	XXX.XXX
210.00	XXX.XXX
211.00	XXX.XXX
212.00	XXX.XXX
213.00	XXX.XXX
214.00	XXX.XXX
215.00	XXX.XXX
216.00	XXX.XXX
217.00	XXX.XXX
218.00	XXX.XXX
219.00	XXX.XXX
220.00	XXX.XXX
221.00	XXX.XXX
222.00	XXX.XXX
223.00	XXX.XXX
224.00	XXX.XXX
225.00	XXX.XXX
226.00	XXX.XXX
227.00	XXX.XXX
228.00	XXX.XXX
229.00	XXX.XXX
230.00	XXX.XXX
231.00	XXX.XXX
232.00	XXX.XXX
233.00	XXX.XXX
234.00	XXX.XXX
235.00	XXX.XXX
236.00	XXX.XXX
237.00	XXX.XXX
238.00	XXX.XXX
239.00	XXX.XXX
240.00	XXX.XXX
241.00	XXX.XXX
242.00	XXX.XXX
243.00	XXX.XXX
244.00	XXX.XXX
245.00	XXX.XXX
246.00	XXX.XXX
247.00	XXX.XXX
248.00	XXX.XXX
249.00	XXX.XXX
250.00	XXX.XXX
251.00	XXX.XXX
252.00	XXX.XXX
253.00	XXX.XXX
254.00	XXX.XXX
255.00	XXX.XXX
256.00	XXX.XXX
257.00	XXX.XXX
258.00	XXX.XXX
259.00	XXX.XXX
260.00	XXX.XXX
261.00	XXX.XXX
262.00	XXX.XXX
263.00	XXX.XXX
264.00	XXX.XXX
265.00	XXX.XXX
266.00	XXX.XXX
267.00	XXX.XXX
268.00	XXX.XXX
269.00	XXX.XXX
270.00	XXX.XXX
271.00	XXX.XXX
272.00	XXX.XXX
273.00	XXX.XXX
274.00	XXX.XXX
275.00	XXX.XXX
276.00	XXX.XXX
277.00	XXX.XXX
278.00	XXX.XXX
279.00	XXX.XXX
280.00	XXX.XXX
281.00	XXX.XXX
282.00	XXX.XXX
283.00	XXX.XXX
284.00	XXX.XXX
285.00	XXX.XXX
286.00	XXX.XXX
287.00	XXX.XXX
288.00	XXX.XXX
289.00	XXX.XXX
290.00	XXX.XXX
291.00	XXX.XXX
292.00	XXX.XXX
293.00	XXX.XXX
294.00	XXX.XXX
295.00	XXX.XXX
296.00	XXX.XXX
297.00	XXX.XXX
298.00	XXX.XXX
299.00	XXX.XXX
300.00	XXX.XXX
301.00	XXX.XXX
302.00	XXX.XXX
303.00	XXX.XXX
304.00	XXX.XXX
305.00	XXX.XXX
306.00	XXX.XXX
307.00	XXX.XXX
308.00	XXX.XXX
309.00	XXX.XXX
310.00	XXX.XXX
311.00	4.695
313.00	3.613
315.00	3.369
317.00	3.042
319.00	2.911
321.00	2.764
323.00	2.655
325.00	2.537
327.00	2.494
329.00	2.437
331.00	2.389
333.00	2.337
335.00	2.295
337.00	2.261
339.00	2.216
341.00	2.168
343.00	2.112
345.00	2.046
347.00	1.958
349.00	1.869
351.00	1.782
353.00	1.678
355.00	1.585
357.00	1.498
359.00	1.421
361.00	1.355
363.00	1.302
365.00	1.254
367.00	1.215
369.00	1.184
371.00	1.159
373.00	1.136
375.00	1.119
377.00	1.101
379.00	1.085
381.00	1.068
383.00	1.054
385.00	1.039
387.00	1.020
389.00	1.008
391.00	0.994
393.00	0.984
395.00	0.967
397.00	0.954
399.00	0.942
401.00	0.928
403.00	0.917
405.00	0.904
407.00	0.892
409.00	0.880
411.00	0.869
413.00	0.848
415.00	0.836
417.00	0.828
419.00	0.818
421.00	0.812
423.00	0.806
425.00	0.800
427.00	0.795
429.00	0.791
431.00	0.784
433.00	0.779
435.00	0.773
437.00	0.770
439.00	0.762
441.00	0.758
443.00	0.754
445.00	0.747
447.00	0.745
449.00	0.743
451.00	0.737
453.00	0.731
455.00	0.728
457.00	0.726
459.00	0.723
461.00	0.721
463.00	0.719
465.00	0.714
467.00	0.713
469.00	0.711
471.00	0.709
473.00	0.708
475.00	0.705
477.00	0.702
479.00	0.702
481.00	0.699
483.00	0.700
485.00	0.700
487.00	0.697
489.00	0.695
491.00	0.696
493.00	0.694
495.00	0.691
497.00	0.691
499.00	0.690
501.00	0.689
503.00	0.689
505.00	0.689
507.00	0.688
509.00	0.687
511.00	0.686
513.00	0.690
515.00	0.689
517.00	0.689
519.00	0.687
521.00	0.684
523.00	0.679
525.00	0.675
527.00	0.667
529.00	0.658
531.00	0.648
533.00	0.637
535.00	0.623
537.00	0.610
539.00	0.597
541.00	0.579
543.00	0.562
545.00	0.545
547.00	0.526
549.00	0.504
551.00	0.486
553.00	0.465
555.00	0.447
557.00	0.427
559.00	0.407
561.00	0.388
563.00	0.368
565.00	0.348
567.00	0.334
569.00	0.314
571.00	0.296
573.00	0.282
575.00	0.269
577.00	0.254
579.00	0.243
581.00	0.229
583.00	0.215
585.00	0.204
587.00	0.191
589.00	0.178
591.00	0.170
593.00	0.162
595.00	0.154
597.00	0.147
599.00	0.141
601.00	0.132
603.00	0.124
605.00	0.118
607.00	0.110
609.00	0.101
611.00	0.097
613.00	0.090
615.00	0.086
617.00	0.081
619.00	0.076
621.00	0.072
623.00	0.070
625.00	0.065
627.00	0.062
629.00	0.056
631.00	0.052
633.00	0.050
635.00	0.043
637.00	0.037
639.00	0.034
641.00	0.030
643.00	0.027
645.00	0.025
647.00	0.022
649.00	0.018
651.00	0.015
653.00	0.017
655.00	0.014
657.00	0.007
659.00	0.008
661.00	0.002
663.00	0.000
665.00	-0.003
667.00	-0.009
669.00	-0.012
671.00	-0.014
673.00	-0.017
675.00	-0.019
677.00	-0.023
679.00	-0.023
681.00	-0.022
683.00	-0.022
685.00	-0.025
687.00	-0.026
689.00	-0.029
691.00	-0.031
693.00	-0.035
695.00	-0.039
697.00	-0.043
699.00	-0.045
701.00	-0.052
703.00	-0.054
705.00	-0.058
707.00	-0.057
709.00	-0.060
711.00	-0.060
713.00	-0.061
715.00	-0.062
717.00	-0.063
719.00	-0.065
721.00	-0.064
723.00	-0.068
725.00	-0.070
727.00	-0.072
729.00	-0.078
731.00	-0.080
733.00	-0.082
735.00	-0.086
737.00	-0.087
739.00	-0.085
741.00	-0.087
743.00	-0.085
745.00	-0.084
747.00	-0.080
749.00	-0.080
751.00	-0.079
753.00	-0.079
755.00	-0.078
757.00	-0.081
759.00	-0.083
761.00	-0.083
763.00	-0.087
765.00	-0.091
767.00	-0.092
769.00	-0.095
771.00	-0.098
773.00	-0.097
775.00	-0.097
777.00	-0.096
779.00	-0.094
781.00	-0.094
783.00	-0.092
785.00	-0.086
787.00	-0.087
789.00	-0.085
791.00	-0.084
793.00	-0.084
795.00	-0.082
797.00	-0.085
799.00	-0.087
800.00	-0.090

File: SentiGlass_14Nov_DC5_01.txt
Batch	SentiGlass_14Nov013.sre
Evolution 600 288002	100%T Baseline Correction
Sample001 Cycle01	14/11/2022 11:21:42AM
nm	A
200.00	XXX.XXX
201.00	XXX.XXX
202.00	XXX.XXX
203.00	XXX.XXX
204.00	XXX.XXX
205.00	XXX.XXX
206.00	XXX.XXX
207.00	XXX.XXX
208.00	XXX.XXX
209.00	XXX.XXX
210.00	XXX.XXX
211.00	XXX.XXX
212.00	XXX.XXX
213.00	XXX.XXX
214.00	XXX.XXX
215.00	XXX.XXX
216.00	XXX.XXX
217.00	XXX.XXX
218.00	XXX.XXX
219.00	XXX.XXX
220.00	XXX.XXX
221.00	XXX.XXX
222.00	XXX.XXX
223.00	XXX.XXX
224.00	XXX.XXX
225.00	XXX.XXX
226.00	XXX.XXX
227.00	XXX.XXX
228.00	XXX.XXX
229.00	XXX.XXX
230.00	XXX.XXX
231.00	XXX.XXX
232.00	XXX.XXX
233.00	XXX.XXX
234.00	XXX.XXX
235.00	XXX.XXX
236.00	XXX.XXX
237.00	XXX.XXX
238.00	XXX.XXX
239.00	XXX.XXX
240.00	XXX.XXX
241.00	XXX.XXX
242.00	XXX.XXX
243.00	XXX.XXX
244.00	XXX.XXX
245.00	XXX.XXX
246.00	XXX.XXX
247.00	XXX.XXX
248.00	XXX.XXX
249.00	XXX.XXX
250.00	XXX.XXX
251.00	XXX.XXX
252.00	XXX.XXX
253.00	XXX.XXX
254.00	XXX.XXX
255.00	XXX.XXX
256.00	XXX.XXX
257.00	XXX.XXX
258.00	XXX.XXX
259.00	XXX.XXX
260.00	XXX.XXX
261.00	XXX.XXX
262.00	XXX.XXX
263.00	XXX.XXX
264.00	XXX.XXX
265.00	XXX.XXX
266.00	XXX.XXX
267.00	XXX.XXX
268.00	XXX.XXX
269.00	XXX.XXX
270.00	XXX.XXX
271.00	XXX.XXX
272.00	XXX.XXX
273.00	XXX.XXX
274.00	XXX.XXX
275.00	XXX.XXX
276.00	XXX.XXX
277.00	XXX.XXX
278.00	XXX.XXX
279.00	XXX.XXX
280.00	XXX.XXX
281.00	XXX.XXX
282.00	XXX.XXX
283.00	XXX.XXX
284.00	XXX.XXX
285.00	XXX.XXX
286.00	XXX.XXX
287.00	XXX.XXX
288.00	XXX.XXX
289.00	XXX.XXX
290.00	XXX.XXX
291.00	XXX.XXX
292.00	XXX.XXX
293.00	XXX.XXX
294.00	XXX.XXX
295.00	XXX.XXX
296.00	XXX.XXX
297.00	XXX.XXX
298.00	XXX.XXX
299.00	XXX.XXX
300.00	XXX.XXX
301.00	XXX.XXX
302.00	XXX.XXX
303.00	XXX.XXX
304.00	XXX.XXX
305.00	XXX.XXX
306.00	XXX.XXX
307.00	XXX.XXX
308.00	XXX.XXX
309.00	XXX.XXX
310.00	XXX.XXX
311.00	4.493
313.00	3.817
315.00	3.454
317.00	3.204
319.00	2.996
321.00	2.878
323.00	2.779
325.00	2.551
327.00	2.509
329.00	2.465
331.00	2.411
333.00	2.360
335.00	2.308
337.00	2.252
339.00	2.162
341.00	2.056
343.00	1.932
345.00	1.798
347.00	1.656
349.00	1.518
351.00	1.388
353.00	1.260
355.00	1.143
357.00	1.041
359.00	0.951
361.00	0.878
363.00	0.817
365.00	0.766
367.00	0.723
369.00	0.689
371.00	0.660
373.00	0.635
375.00	0.617
377.00	0.598
379.00	0.579
381.00	0.561
383.00	0.545
385.00	0.530
387.00	0.514
389.00	0.502
391.00	0.489
393.00	0.479
395.00	0.464
397.00	0.454
399.00	0.444
401.00	0.434
403.00	0.424
405.00	0.416
407.00	0.407
409.00	0.399
411.00	0.391
413.00	0.373
415.00	0.366
417.00	0.358
419.00	0.351
421.00	0.343
423.00	0.338
425.00	0.331
427.00	0.325
429.00	0.322
431.00	0.316
433.00	0.310
435.00	0.299
437.00	0.297
439.00	0.292
441.00	0.286
443.00	0.283
445.00	0.275
447.00	0.272
449.00	0.269
451.00	0.264
453.00	0.257
455.00	0.253
457.00	0.247
459.00	0.242
461.00	0.237
463.00	0.235
465.00	0.227
467.00	0.223
469.00	0.216
471.00	0.213
473.00	0.208
475.00	0.202
477.00	0.199
479.00	0.197
481.00	0.191
483.00	0.191
485.00	0.187
487.00	0.180
489.00	0.181
491.00	0.179
493.00	0.176
495.00	0.171
497.00	0.170
499.00	0.166
501.00	0.164
503.00	0.160
505.00	0.159
507.00	0.158
509.00	0.155
511.00	0.155
513.00	0.156
515.00	0.154
517.00	0.154
519.00	0.152
521.00	0.146
523.00	0.147
525.00	0.147
527.00	0.143
529.00	0.141
531.00	0.138
533.00	0.135
535.00	0.132
537.00	0.128
539.00	0.129
541.00	0.123
543.00	0.123
545.00	0.123
547.00	0.118
549.00	0.115
551.00	0.114
553.00	0.108
555.00	0.107
557.00	0.105
559.00	0.101
561.00	0.100
563.00	0.097
565.00	0.095
567.00	0.097
569.00	0.092
571.00	0.090
573.00	0.089
575.00	0.087
577.00	0.082
579.00	0.082
581.00	0.080
583.00	0.077
585.00	0.081
587.00	0.077
589.00	0.076
591.00	0.074
593.00	0.072
595.00	0.071
597.00	0.069
599.00	0.070
601.00	0.065
603.00	0.064
605.00	0.063
607.00	0.062
609.00	0.059
611.00	0.060
613.00	0.059
615.00	0.059
617.00	0.056
619.00	0.056
621.00	0.052
623.00	0.053
625.00	0.051
627.00	0.050
629.00	0.048
631.00	0.050
633.00	0.050
635.00	0.048
637.00	0.043
639.00	0.045
641.00	0.044
643.00	0.044
645.00	0.044
647.00	0.041
649.00	0.040
651.00	0.037
653.00	0.041
655.00	0.040
657.00	0.036
659.00	0.039
661.00	0.038
663.00	0.037
665.00	0.038
667.00	0.033
669.00	0.036
671.00	0.034
673.00	0.033
675.00	0.033
677.00	0.032
679.00	0.031
681.00	0.032
683.00	0.034
685.00	0.032
687.00	0.031
689.00	0.031
691.00	0.033
693.00	0.031
695.00	0.030
697.00	0.028
699.00	0.029
701.00	0.025
703.00	0.025
705.00	0.022
707.00	0.023
709.00	0.020
711.00	0.021
713.00	0.017
715.00	0.018
717.00	0.017
719.00	0.014
721.00	0.017
723.00	0.014
725.00	0.012
727.00	0.015
729.00	0.012
731.00	0.013
733.00	0.012
735.00	0.012
737.00	0.010
739.00	0.014
741.00	0.010
743.00	0.012
745.00	0.011
747.00	0.013
749.00	0.012
751.00	0.010
753.00	0.010
755.00	0.012
757.00	0.008
759.00	0.008
761.00	0.007
763.00	0.006
765.00	0.005
767.00	0.007
769.00	0.004
771.00	0.004
773.00	0.006
775.00	0.006
777.00	0.007
779.00	0.008
781.00	0.007
783.00	0.010
785.00	0.008
787.00	0.007
789.00	0.007
791.00	0.006
793.00	0.004
795.00	0.010
797.00	0.004
799.00	0.001
800.00	0.003

File: SentiGlass_14Nov_DC_Ref01.txt
Batch	SentiGlass_14Nov005.sre
Evolution 600 288002	100%T Baseline Correction
DC_Ref Cycle01	14/11/2022 10:49:42AM
nm	A
200.00	XXX.XXX
201.00	XXX.XXX
202.00	XXX.XXX
203.00	XXX.XXX
204.00	XXX.XXX
205.00	XXX.XXX
206.00	XXX.XXX
207.00	XXX.XXX
208.00	XXX.XXX
209.00	XXX.XXX
210.00	XXX.XXX
211.00	XXX.XXX
212.00	XXX.XXX
213.00	XXX.XXX
214.00	XXX.XXX
215.00	XXX.XXX
216.00	XXX.XXX
217.00	XXX.XXX
218.00	XXX.XXX
219.00	XXX.XXX
220.00	XXX.XXX
221.00	XXX.XXX
222.00	XXX.XXX
223.00	XXX.XXX
224.00	XXX.XXX
225.00	XXX.XXX
226.00	XXX.XXX
227.00	XXX.XXX
228.00	XXX.XXX
229.00	XXX.XXX
230.00	XXX.XXX
231.00	XXX.XXX
232.00	XXX.XXX
233.00	XXX.XXX
234.00	XXX.XXX
235.00	XXX.XXX
236.00	XXX.XXX
237.00	XXX.XXX
238.00	XXX.XXX
239.00	XXX.XXX
240.00	XXX.XXX
241.00	XXX.XXX
242.00	XXX.XXX
243.00	XXX.XXX
244.00	XXX.XXX
245.00	XXX.XXX
246.00	XXX.XXX
247.00	XXX.XXX
248.00	XXX.XXX
249.00	XXX.XXX
250.00	XXX.XXX
251.00	XXX.XXX
252.00	XXX.XXX
253.00	XXX.XXX
254.00	XXX.XXX
255.00	XXX.XXX
256.00	XXX.XXX
257.00	XXX.XXX
258.00	XXX.XXX
259.00	XXX.XXX
260.00	XXX.XXX
261.00	XXX.XXX
262.00	XXX.XXX
263.00	XXX.XXX
264.00	XXX.XXX
265.00	XXX.XXX
266.00	XXX.XXX
267.00	XXX.XXX
268.00	XXX.XXX
269.00	XXX.XXX
270.00	XXX.XXX
271.00	XXX.XXX
272.00	XXX.XXX
273.00	XXX.XXX
274.00	XXX.XXX
275.00	XXX.XXX
276.00	XXX.XXX
277.00	XXX.XXX
278.00	XXX.XXX
279.00	XXX.XXX
280.00	XXX.XXX
281.00	XXX.XXX
282.00	XXX.XXX
283.00	XXX.XXX
284.00	XXX.XXX
285.00	XXX.XXX
286.00	XXX.XXX
287.00	XXX.XXX
288.00	XXX.XXX
289.00	XXX.XXX
290.00	XXX.XXX
291.00	XXX.XXX
292.00	XXX.XXX
293.00	XXX.XXX
294.00	XXX.XXX
295.00	XXX.XXX
296.00	XXX.XXX
297.00	XXX.XXX
298.00	XXX.XXX
299.00	XXX.XXX
300.00	XXX.XXX
301.00	XXX.XXX
302.00	XXX.XXX
303.00	XXX.XXX
304.00	XXX.XXX
305.00	XXX.XXX
306.00	XXX.XXX
307.00	XXX.XXX
308.00	XXX.XXX
309.00	XXX.XXX
310.00	XXX.XXX
311.00	XXX.XXX
312.00	XXX.XXX
313.00	XXX.XXX
314.00	XXX.XXX
315.00	XXX.XXX
316.00	XXX.XXX
317.00	XXX.XXX
318.00	XXX.XXX
319.00	XXX.XXX
320.00	XXX.XXX
321.00	XXX.XXX
322.00	XXX.XXX
323.00	XXX.XXX
324.00	XXX.XXX
325.00	XXX.XXX
326.00	XXX.XXX
327.00	XXX.XXX
328.00	XXX.XXX
329.00	XXX.XXX
330.00	XXX.XXX
331.00	XXX.XXX
332.00	XXX.XXX
333.00	XXX.XXX
334.00	XXX.XXX
335.00	XXX.XXX
336.00	XXX.XXX
337.00	XXX.XXX
338.00	XXX.XXX
339.00	XXX.XXX
340.00	XXX.XXX
341.00	XXX.XXX
342.00	XXX.XXX
343.00	XXX.XXX
344.00	XXX.XXX
345.00	XXX.XXX
346.00	XXX.XXX
347.00	XXX.XXX
348.00	XXX.XXX
349.00	XXX.XXX
350.00	XXX.XXX
351.00	XXX.XXX
352.00	XXX.XXX
353.00	XXX.XXX
354.00	XXX.XXX
355.00	XXX.XXX
356.00	XXX.XXX
357.00	XXX.XXX
358.00	XXX.XXX
359.00	XXX.XXX
360.00	XXX.XXX
361.00	XXX.XXX
362.00	XXX.XXX
363.00	XXX.XXX
364.00	XXX.XXX
365.00	XXX.XXX
366.00	XXX.XXX
367.00	XXX.XXX
368.00	XXX.XXX
369.00	XXX.XXX
370.00	XXX.XXX
371.00	XXX.XXX
372.00	XXX.XXX
373.00	XXX.XXX
374.00	XXX.XXX
375.00	XXX.XXX
376.00	XXX.XXX
377.00	XXX.XXX
378.00	XXX.XXX
379.00	XXX.XXX
380.00	XXX.XXX
381.00	XXX.XXX
382.00	XXX.XXX
383.00	XXX.XXX
384.00	XXX.XXX
385.00	XXX.XXX
386.00	XXX.XXX
387.00	XXX.XXX
388.00	XXX.XXX
389.00	XXX.XXX
390.00	XXX.XXX
391.00	XXX.XXX
392.00	XXX.XXX
393.00	XXX.XXX
394.00	XXX.XXX
395.00	XXX.XXX
396.00	XXX.XXX
397.00	XXX.XXX
398.00	XXX.XXX
399.00	XXX.XXX
400.00	XXX.XXX
401.00	XXX.XXX
402.00	XXX.XXX
403.00	XXX.XXX
404.00	XXX.XXX
405.00	XXX.XXX
406.00	XXX.XXX
407.00	XXX.XXX
408.00	XXX.XXX
409.00	XXX.XXX
410.00	XXX.XXX
411.00	XXX.XXX
412.00	XXX.XXX
413.00	XXX.XXX
414.00	XXX.XXX
415.00	XXX.XXX
416.00	XXX.XXX
417.00	XXX.XXX
418.00	XXX.XXX
419.00	XXX.XXX
420.00	XXX.XXX
421.00	XXX.XXX
422.00	XXX.XXX
423.00	XXX.XXX
424.00	XXX.XXX
425.00	XXX.XXX
426.00	XXX.XXX
427.00	XXX.XXX
428.00	XXX.XXX
429.00	XXX.XXX
430.00	XXX.XXX
431.00	XXX.XXX
432.00	XXX.XXX
433.00	XXX.XXX
434.00	XXX.XXX
435.00	XXX.XXX
436.00	XXX.XXX
437.00	XXX.XXX
438.00	XXX.XXX
439.00	XXX.XXX
440.00	XXX.XXX
441.00	XXX.XXX
442.00	XXX.XXX
443.00	XXX.XXX
444.00	XXX.XXX
445.00	XXX.XXX
446.00	XXX.XXX
447.00	XXX.XXX
448.00	XXX.XXX
449.00	XXX.XXX
450.00	XXX.XXX
451.00	XXX.XXX
452.00	XXX.XXX
453.00	XXX.XXX
454.00	XXX.XXX
455.00	4.902
456.00	XXX.XXX
457.00	XXX.XXX
458.00	4.604
460.00	4.149
462.00	3.925
464.00	3.775
466.00	3.645
468.00	3.544
470.00	3.442
472.00	3.386
474.00	3.322
476.00	3.264
478.00	3.213
480.00	3.164
482.00	3.134
484.00	3.087
486.00	3.059
488.00	3.035
490.00	3.008
492.00	2.979
494.00	2.954
496.00	2.936
498.00	2.919
500.00	2.894
502.00	2.877
504.00	2.859
506.00	2.841
508.00	2.845
510.00	2.824
512.00	2.799
514.00	2.775
516.00	2.750
518.00	2.724
520.00	2.705
522.00	2.673
524.00	2.657
526.00	2.629
528.00	2.590
530.00	2.554
532.00	2.521
534.00	2.480
536.00	2.437
538.00	2.397
540.00	2.354
542.00	2.309
544.00	2.267
546.00	2.228
548.00	2.178
550.00	2.133
552.00	2.089
554.00	2.042
556.00	2.000
558.00	1.960
560.00	1.916
562.00	1.874
564.00	1.836
566.00	1.798
568.00	1.762
570.00	1.725
572.00	1.695
574.00	1.661
576.00	1.625
578.00	1.597
580.00	1.572
582.00	1.541
584.00	1.515
586.00	1.493
588.00	1.470
590.00	1.445
592.00	1.423
594.00	1.402
596.00	1.381
598.00	1.358
600.00	1.342
602.00	1.326
604.00	1.308
606.00	1.290
608.00	1.273
610.00	1.260
612.00	1.243
614.00	1.226
616.00	1.213
618.00	1.203
620.00	1.190
622.00	1.171
624.00	1.158
626.00	1.148
628.00	1.139
630.00	1.125
632.00	1.114
634.00	1.103
636.00	1.094
638.00	1.082
640.00	1.071
642.00	1.063
644.00	1.054
646.00	1.045
648.00	1.032
650.00	1.021
652.00	1.013
654.00	1.006
656.00	1.000
658.00	0.989
660.00	0.980
662.00	0.971
664.00	0.962
666.00	0.955
668.00	0.946
670.00	0.942
672.00	0.937
674.00	0.932
676.00	0.924
678.00	0.911
680.00	0.902
682.00	0.901
684.00	0.898
686.00	0.896
688.00	0.890
690.00	0.887
692.00	0.879
694.00	0.872
696.00	0.867
698.00	0.861
700.00	0.861
702.00	0.863
704.00	0.864
706.00	0.859
708.00	0.856
710.00	0.845
712.00	0.841
714.00	0.839
716.00	0.839
718.00	0.840
720.00	0.834
722.00	0.835
724.00	0.832
726.00	0.830
728.00	0.824
730.00	0.822
732.00	0.817
734.00	0.815
736.00	0.812
738.00	0.819
740.00	0.820
742.00	0.817
744.00	0.815
746.00	0.811
748.00	0.805
750.00	0.803
752.00	0.804
754.00	0.804
756.00	0.800
758.00	0.801
760.00	0.801
762.00	0.803
764.00	0.802
766.00	0.799
768.00	0.796
770.00	0.792
772.00	0.788
774.00	0.791
776.00	0.792
778.00	0.796
780.00	0.793
782.00	0.791
784.00	0.789
786.00	0.787
788.00	0.785
790.00	0.783
792.00	0.785
794.00	0.780
796.00	0.781
798.00	0.780
800.00	0.778

File: SentiGlass_14Nov_HA3_01.txt
Batch	SentiGlass_14Nov015.sre
Evolution 600 288002	100%T Baseline Correction
Sample001 Cycle01	14/11/2022 11:29:48AM
nm	A
200.00	XXX.XXX
201.00	XXX.XXX
202.00	XXX.XXX
203.00	XXX.XXX
204.00	XXX.XXX
205.00	XXX.XXX
206.00	XXX.XXX
207.00	XXX.XXX
208.00	XXX.XXX
209.00	XXX.XXX
210.00	XXX.XXX
211.00	XXX.XXX
212.00	XXX.XXX
213.00	XXX.XXX
214.00	XXX.XXX
215.00	XXX.XXX
216.00	XXX.XXX
217.00	XXX.XXX
218.00	XXX.XXX
219.00	XXX.XXX
220.00	XXX.XXX
221.00	XXX.XXX
222.00	XXX.XXX
223.00	XXX.XXX
224.00	XXX.XXX
225.00	XXX.XXX
226.00	XXX.XXX
227.00	XXX.XXX
228.00	XXX.XXX
229.00	XXX.XXX
230.00	XXX.XXX
231.00	XXX.XXX
232.00	XXX.XXX
233.00	XXX.XXX
234.00	XXX.XXX
235.00	XXX.XXX
236.00	XXX.XXX
237.00	XXX.XXX
238.00	XXX.XXX
239.00	XXX.XXX
240.00	XXX.XXX
241.00	XXX.XXX
242.00	XXX.XXX
243.00	XXX.XXX
244.00	XXX.XXX
245.00	XXX.XXX
246.00	XXX.XXX
247.00	XXX.XXX
248.00	XXX.XXX
249.00	XXX.XXX
250.00	XXX.XXX
251.00	XXX.XXX
252.00	XXX.XXX
253.00	XXX.XXX
254.00	XXX.XXX
255.00	XXX.XXX
256.00	XXX.XXX
257.00	XXX.XXX
258.00	XXX.XXX
259.00	XXX.XXX
260.00	XXX.XXX
261.00	XXX.XXX
262.00	XXX.XXX
263.00	XXX.XXX
264.00	XXX.XXX
265.00	XXX.XXX
266.00	XXX.XXX
267.00	XXX.XXX
268.00	XXX.XXX
269.00	XXX.XXX
270.00	XXX.XXX
271.00	XXX.XXX
272.00	XXX.XXX
273.00	XXX.XXX
274.00	XXX.XXX
275.00	XXX.XXX
276.00	XXX.XXX
277.00	XXX.XXX
278.00	XXX.XXX
279.00	XXX.XXX
280.00	XXX.XXX
281.00	XXX.XXX
282.00	XXX.XXX
283.00	XXX.XXX
284.00	XXX.XXX
285.00	XXX.XXX
286.00	XXX.XXX
287.00	XXX.XXX
288.00	XXX.XXX
289.00	XXX.XXX
290.00	XXX.XXX
291.00	XXX.XXX
292.00	XXX.XXX
293.00	XXX.XXX
294.00	XXX.XXX
295.00	XXX.XXX
296.00	XXX.XXX
297.00	XXX.XXX
298.00	XXX.XXX
299.00	XXX.XXX
300.00	XXX.XXX
301.00	XXX.XXX
302.00	XXX.XXX
303.00	XXX.XXX
304.00	XXX.XXX
305.00	XXX.XXX
306.00	XXX.XXX
307.00	XXX.XXX
308.00	3.913
310.00	3.411
312.00	3.051
314.00	2.798
316.00	2.604
318.00	2.445
320.00	2.317
322.00	2.197
324.00	2.103
326.00	2.098
328.00	2.040
330.00	1.978
332.00	1.922
334.00	1.870
336.00	1.828
338.00	1.787
340.00	1.734
342.00	1.692
344.00	1.643
346.00	1.590
348.00	1.527
350.00	1.471
352.00	1.408
354.00	1.342
356.00	1.279
358.00	1.221
360.00	1.165
362.00	1.125
364.00	1.084
366.00	1.053
368.00	1.024
370.00	0.998
372.00	0.980
374.00	0.963
376.00	0.951
378.00	0.936
380.00	0.918
382.00	0.907
384.00	0.891
386.00	0.878
388.00	0.868
390.00	0.855
392.00	0.843
394.00	0.831
396.00	0.820
398.00	0.809
400.00	0.801
402.00	0.788
404.00	0.780
406.00	0.769
408.00	0.760
410.00	0.748
412.00	0.731
414.00	0.719
416.00	0.709
418.00	0.702
420.00	0.693
422.00	0.682
424.00	0.674
426.00	0.662
428.00	0.653
430.00	0.645
432.00	0.634
434.00	0.626
436.00	0.616
438.00	0.605
440.00	0.596
442.00	0.584
444.00	0.576
446.00	0.564
448.00	0.556
450.00	0.547
452.00	0.536
454.00	0.527
456.00	0.519
458.00	0.510
460.00	0.498
462.00	0.489
464.00	0.478
466.00	0.470
468.00	0.463
470.00	0.451
472.00	0.442
474.00	0.434
476.00	0.427
478.00	0.418
480.00	0.412
482.00	0.403
484.00	0.398
486.00	0.392
488.00	0.385
490.00	0.378
492.00	0.371
494.00	0.365
496.00	0.361
498.00	0.356
500.00	0.349
502.00	0.344
504.00	0.337
506.00	0.333
508.00	0.327
510.00	0.321
512.00	0.322
514.00	0.317
516.00	0.312
518.00	0.307
520.00	0.303
522.00	0.297
524.00	0.293
526.00	0.289
528.00	0.285
530.00	0.279
532.00	0.274
534.00	0.270
536.00	0.264
538.00	0.259
540.00	0.255
542.00	0.248
544.00	0.244
546.00	0.242
548.00	0.238
550.00	0.233
552.00	0.228
554.00	0.222
556.00	0.218
558.00	0.217
560.00	0.211
562.00	0.207
564.00	0.203
566.00	0.198
568.00	0.198
570.00	0.195
572.00	0.189
574.00	0.185
576.00	0.179
578.00	0.178
580.00	0.178
582.00	0.174
584.00	0.169
586.00	0.169
588.00	0.165
590.00	0.163
592.00	0.161
594.00	0.156
596.00	0.153
598.00	0.152
600.00	0.149
602.00	0.146
604.00	0.142
606.00	0.142
608.00	0.140
610.00	0.139
612.00	0.134
614.00	0.130
616.00	0.131
618.00	0.131
620.00	0.128
622.00	0.124
624.00	0.124
626.00	0.121
628.00	0.118
630.00	0.116
632.00	0.118
634.00	0.114
636.00	0.114
638.00	0.111
640.00	0.109
642.00	0.108
644.00	0.105
646.00	0.106
648.00	0.104
650.00	0.102
652.00	0.101
654.00	0.100
656.00	0.100
658.00	0.097
660.00	0.098
662.00	0.095
664.00	0.094
666.00	0.094
668.00	0.091
670.00	0.093
672.00	0.090
674.00	0.087
676.00	0.090
678.00	0.087
680.00	0.085
682.00	0.089
684.00	0.084
686.00	0.086
688.00	0.087
690.00	0.087
692.00	0.083
694.00	0.080
696.00	0.081
698.00	0.080
700.00	0.078
702.00	0.075
704.00	0.075
706.00	0.071
708.00	0.070
710.00	0.066
712.00	0.067
714.00	0.065
716.00	0.063
718.00	0.064
720.00	0.061
722.00	0.059
724.00	0.060
726.00	0.059
728.00	0.056
730.00	0.057
732.00	0.056
734.00	0.057
736.00	0.054
738.00	0.058
740.00	0.056
742.00	0.053
744.00	0.054
746.00	0.053
748.00	0.052
750.00	0.050
752.00	0.050
754.00	0.049
756.00	0.050
758.00	0.049
760.00	0.049
762.00	0.047
764.00	0.048
766.00	0.049
768.00	0.049
770.00	0.047
772.00	0.047
774.00	0.049
776.00	0.047
778.00	0.048
780.00	0.044
782.00	0.045
784.00	0.043
786.00	0.045
788.00	0.041
790.00	0.042
792.00	0.044
794.00	0.040
796.00	0.040
798.00	0.042
800.00	0.036