Folder: y3_DSSC/plot_datasets/graph-14_Nov/UV-Vis_SentiGlass (part 2)

File: SentiGlass_14Nov_HA4_01.txt
Batch	SentiGlass_14Nov011.sre
Evolution 600 288002	100%T Baseline Correction
Sample001 Cycle01	14/11/2022 11:14:59AM
nm	A
200.00	XXX.XXX
201.00	XXX.XXX
202.00	XXX.XXX
203.00	XXX.XXX
204.00	XXX.XXX
205.00	XXX.XXX
206.00	XXX.XXX
207.00	XXX.XXX
208.00	XXX.XXX
209.00	XXX.XXX
210.00	XXX.XXX
211.00	XXX.XXX
212.00	XXX.XXX
213.00	XXX.XXX
214.00	XXX.XXX
215.00	XXX.XXX
216.00	XXX.XXX
217.00	XXX.XXX
218.00	XXX.XXX
219.00	XXX.XXX
220.00	XXX.XXX
221.00	XXX.XXX
222.00	XXX.XXX
223.00	XXX.XXX
224.00	XXX.XXX
225.00	XXX.XXX
226.00	XXX.XXX
227.00	XXX.XXX
228.00	XXX.XXX
229.00	XXX.XXX
230.00	XXX.XXX
231.00	XXX.XXX
232.00	XXX.XXX
233.00	XXX.XXX
234.00	XXX.XXX
235.00	XXX.XXX
236.00	XXX.XXX
237.00	XXX.XXX
238.00	XXX.XXX
239.00	XXX.XXX
240.00	XXX.XXX
241.00	XXX.XXX
242.00	XXX.XXX
243.00	XXX.XXX
244.00	XXX.XXX
245.00	XXX.XXX
246.00	XXX.XXX
247.00	XXX.XXX
248.00	XXX.XXX
249.00	XXX.XXX
250.00	XXX.XXX
251.00	XXX.XXX
252.00	XXX.XXX
253.00	XXX.XXX
254.00	XXX.XXX
255.00	XXX.XXX
256.00	XXX.XXX
257.00	XXX.XXX
258.00	XXX.XXX
259.00	XXX.XXX
260.00	XXX.XXX
261.00	XXX.XXX
262.00	XXX.XXX
263.00	XXX.XXX
264.00	XXX.XXX
265.00	XXX.XXX
266.00	XXX.XXX
267.00	XXX.XXX
268.00	XXX.XXX
269.00	XXX.XXX
270.00	XXX.XXX
271.00	XXX.XXX
272.00	XXX.XXX
273.00	XXX.XXX
274.00	XXX.XXX
275.00	XXX.XXX
276.00	XXX.XXX
277.00	XXX.XXX
278.00	XXX.XXX
279.00	XXX.XXX
280.00	XXX.XXX
281.00	XXX.XXX
282.00	XXX.XXX
283.00	XXX.XXX
284.00	XXX.XXX
285.00	XXX.XXX
286.00	XXX.XXX
287.00	XXX.XXX
288.00	XXX.XXX
289.00	XXX.XXX
290.00	XXX.XXX
291.00	XXX.XXX
292.00	XXX.XXX
293.00	XXX.XXX
294.00	XXX.XXX
295.00	XXX.XXX
296.00	XXX.XXX
297.00	XXX.XXX
298.00	XXX.XXX
299.00	XXX.XXX
300.00	XXX.XXX
301.00	XXX.XXX
302.00	XXX.XXX
303.00	XXX.XXX
304.00	XXX.XXX
305.00	3.792
307.00	3.215
309.00	2.823
311.00	2.557
313.00	2.352
315.00	2.164
317.00	2.006
319.00	1.874
321.00	1.758
323.00	1.660
325.00	1.615
327.00	1.537
329.00	1.476
331.00	1.420
333.00	1.370
335.00	1.326
337.00	1.285
339.00	1.245
341.00	1.207
343.00	1.167
345.00	1.123
347.00	1.071
349.00	1.015
351.00	0.952
353.00	0.891
355.00	0.829
357.00	0.774
359.00	0.717
361.00	0.670
363.00	0.629
365.00	0.595
367.00	0.566
369.00	0.541
371.00	0.520
373.00	0.502
375.00	0.489
377.00	0.476
379.00	0.462
381.00	0.448
383.00	0.436
385.00	0.424
387.00	0.411
389.00	0.402
391.00	0.392
393.00	0.384
395.00	0.373
397.00	0.366
399.00	0.357
401.00	0.350
403.00	0.343
405.00	0.337
407.00	0.330
409.00	0.323
411.00	0.317
413.00	0.303
415.00	0.298
417.00	0.291
419.00	0.283
421.00	0.277
423.00	0.275
425.00	0.269
427.00	0.266
429.00	0.261
431.00	0.256
433.00	0.251
435.00	0.246
437.00	0.241
439.00	0.239
441.00	0.234
443.00	0.232
445.00	0.226
447.00	0.225
449.00	0.220
451.00	0.216
453.00	0.211
455.00	0.206
457.00	0.205
459.00	0.199
461.00	0.195
463.00	0.192
465.00	0.186
467.00	0.183
469.00	0.179
471.00	0.176
473.00	0.172
475.00	0.168
477.00	0.163
479.00	0.162
481.00	0.157
483.00	0.156
485.00	0.155
487.00	0.151
489.00	0.148
491.00	0.147
493.00	0.146
495.00	0.141
497.00	0.140
499.00	0.136
501.00	0.137
503.00	0.132
505.00	0.132
507.00	0.130
509.00	0.130
511.00	0.127
513.00	0.130
515.00	0.128
517.00	0.127
519.00	0.125
521.00	0.120
523.00	0.122
525.00	0.121
527.00	0.119
529.00	0.117
531.00	0.115
533.00	0.114
535.00	0.110
537.00	0.106
539.00	0.108
541.00	0.102
543.00	0.102
545.00	0.101
547.00	0.099
549.00	0.094
551.00	0.095
553.00	0.091
555.00	0.092
557.00	0.086
559.00	0.085
561.00	0.081
563.00	0.081
565.00	0.079
567.00	0.080
569.00	0.076
571.00	0.075
573.00	0.072
575.00	0.073
577.00	0.070
579.00	0.069
581.00	0.068
583.00	0.065
585.00	0.064
587.00	0.063
589.00	0.059
591.00	0.062
593.00	0.060
595.00	0.059
597.00	0.058
599.00	0.056
601.00	0.053
603.00	0.052
605.00	0.051
607.00	0.051
609.00	0.047
611.00	0.049
613.00	0.048
615.00	0.046
617.00	0.046
619.00	0.043
621.00	0.042
623.00	0.042
625.00	0.041
627.00	0.042
629.00	0.040
631.00	0.040
633.00	0.040
635.00	0.036
637.00	0.034
639.00	0.036
641.00	0.035
643.00	0.036
645.00	0.035
647.00	0.034
649.00	0.033
651.00	0.030
653.00	0.032
655.00	0.032
657.00	0.027
659.00	0.032
661.00	0.030
663.00	0.031
665.00	0.029
667.00	0.026
669.00	0.028
671.00	0.029
673.00	0.026
675.00	0.026
677.00	0.024
679.00	0.025
681.00	0.024
683.00	0.025
685.00	0.025
687.00	0.025
689.00	0.027
691.00	0.026
693.00	0.026
695.00	0.025
697.00	0.022
699.00	0.022
701.00	0.019
703.00	0.019
705.00	0.016
707.00	0.016
709.00	0.012
711.00	0.013
713.00	0.012
715.00	0.010
717.00	0.010
719.00	0.009
721.00	0.011
723.00	0.009
725.00	0.009
727.00	0.010
729.00	0.009
731.00	0.009
733.00	0.008
735.00	0.006
737.00	0.005
739.00	0.009
741.00	0.006
743.00	0.007
745.00	0.006
747.00	0.007
749.00	0.006
751.00	0.005
753.00	0.005
755.00	0.005
757.00	0.004
759.00	0.004
761.00	0.006
763.00	0.003
765.00	0.003
767.00	0.005
769.00	0.002
771.00	0.002
773.00	0.003
775.00	0.003
777.00	0.002
779.00	0.004
781.00	0.001
783.00	0.004
785.00	0.002
787.00	0.002
789.00	0.000
791.00	0.000
793.00	-0.001
795.00	0.003
797.00	0.000
799.00	0.000
800.00	-0.001

File: SentiGlass_14Nov_HA5_01.txt
Batch	SentiGlass_14Nov008.sre
Evolution 600 288002	100%T Baseline Correction
Sample001 Cycle01	14/11/2022 11:04:27AM
nm	A
200.00	XXX.XXX
201.00	XXX.XXX
202.00	XXX.XXX
203.00	XXX.XXX
204.00	XXX.XXX
205.00	XXX.XXX
206.00	XXX.XXX
207.00	XXX.XXX
208.00	XXX.XXX
209.00	XXX.XXX
210.00	XXX.XXX
211.00	XXX.XXX
212.00	XXX.XXX
213.00	XXX.XXX
214.00	XXX.XXX
215.00	XXX.XXX
216.00	XXX.XXX
217.00	XXX.XXX
218.00	XXX.XXX
219.00	XXX.XXX
220.00	XXX.XXX
221.00	XXX.XXX
222.00	XXX.XXX
223.00	XXX.XXX
224.00	XXX.XXX
225.00	XXX.XXX
226.00	XXX.XXX
227.00	XXX.XXX
228.00	XXX.XXX
229.00	XXX.XXX
230.00	XXX.XXX
231.00	XXX.XXX
232.00	XXX.XXX
233.00	XXX.XXX
234.00	XXX.XXX
235.00	XXX.XXX
236.00	XXX.XXX
237.00	XXX.XXX
238.00	XXX.XXX
239.00	XXX.XXX
240.00	XXX.XXX
241.00	XXX.XXX
242.00	XXX.XXX
243.00	XXX.XXX
244.00	XXX.XXX
245.00	XXX.XXX
246.00	XXX.XXX
247.00	XXX.XXX
248.00	XXX.XXX
249.00	XXX.XXX
250.00	XXX.XXX
251.00	XXX.XXX
252.00	XXX.XXX
253.00	XXX.XXX
254.00	XXX.XXX
255.00	XXX.XXX
256.00	XXX.XXX
257.00	XXX.XXX
258.00	XXX.XXX
259.00	XXX.XXX
260.00	XXX.XXX
261.00	XXX.XXX
262.00	XXX.XXX
263.00	XXX.XXX
264.00	XXX.XXX
265.00	XXX.XXX
266.00	XXX.XXX
267.00	XXX.XXX
268.00	XXX.XXX
269.00	XXX.XXX
270.00	XXX.XXX
271.00	XXX.XXX
272.00	XXX.XXX
273.00	XXX.XXX
274.00	XXX.XXX
275.00	XXX.XXX
276.00	XXX.XXX
277.00	XXX.XXX
278.00	XXX.XXX
279.00	XXX.XXX
280.00	XXX.XXX
281.00	XXX.XXX
282.00	XXX.XXX
283.00	XXX.XXX
284.00	XXX.XXX
285.00	XXX.XXX
286.00	XXX.XXX
287.00	XXX.XXX
288.00	XXX.XXX
289.00	XXX.XXX
290.00	XXX.XXX
291.00	XXX.XXX
292.00	XXX.XXX
293.00	XXX.XXX
294.00	XXX.XXX
295.00	XXX.XXX
296.00	XXX.XXX
297.00	XXX.XXX
298.00	XXX.XXX
299.00	XXX.XXX
300.00	XXX.XXX
301.00	XXX.XXX
302.00	XXX.XXX
303.00	XXX.XXX
304.00	XXX.XXX
305.00	XXX.XXX
306.00	XXX.XXX
307.00	3.889
309.00	3.383
311.00	3.023
313.00	2.760
315.00	2.548
317.00	2.371
319.00	2.244
321.00	2.122
323.00	2.025
325.00	2.003
327.00	1.936
329.00	1.880
331.00	1.823
333.00	1.767
335.00	1.724
337.00	1.678
339.00	1.623
341.00	1.568
343.00	1.500
345.00	1.423
347.00	1.336
349.00	1.236
351.00	1.141
353.00	1.042
355.00	0.948
357.00	0.861
359.00	0.784
361.00	0.719
363.00	0.669
365.00	0.620
367.00	0.584
369.00	0.553
371.00	0.527
373.00	0.503
375.00	0.487
377.00	0.470
379.00	0.452
381.00	0.437
383.00	0.421
385.00	0.409
387.00	0.392
389.00	0.382
391.00	0.371
393.00	0.360
395.00	0.349
397.00	0.338
399.00	0.329
401.00	0.319
403.00	0.312
405.00	0.303
407.00	0.297
409.00	0.289
411.00	0.282
413.00	0.264
415.00	0.257
417.00	0.249
419.00	0.241
421.00	0.236
423.00	0.230
425.00	0.225
427.00	0.220
429.00	0.216
431.00	0.209
433.00	0.207
435.00	0.199
437.00	0.193
439.00	0.189
441.00	0.186
443.00	0.183
445.00	0.176
447.00	0.173
449.00	0.170
451.00	0.164
453.00	0.158
455.00	0.154
457.00	0.151
459.00	0.145
461.00	0.142
463.00	0.137
465.00	0.131
467.00	0.126
469.00	0.124
471.00	0.119
473.00	0.116
475.00	0.111
477.00	0.105
479.00	0.102
481.00	0.099
483.00	0.098
485.00	0.096
487.00	0.092
489.00	0.090
491.00	0.088
493.00	0.086
495.00	0.083
497.00	0.083
499.00	0.082
501.00	0.078
503.00	0.073
505.00	0.072
507.00	0.071
509.00	0.069
511.00	0.072
513.00	0.071
515.00	0.069
517.00	0.070
519.00	0.069
521.00	0.065
523.00	0.062
525.00	0.064
527.00	0.060
529.00	0.059
531.00	0.056
533.00	0.054
535.00	0.049
537.00	0.049
539.00	0.049
541.00	0.043
543.00	0.042
545.00	0.041
547.00	0.039
549.00	0.035
551.00	0.033
553.00	0.032
555.00	0.031
557.00	0.026
559.00	0.025
561.00	0.022
563.00	0.020
565.00	0.018
567.00	0.019
569.00	0.015
571.00	0.011
573.00	0.012
575.00	0.013
577.00	0.008
579.00	0.011
581.00	0.006
583.00	0.004
585.00	0.004
587.00	0.002
589.00	-0.001
591.00	0.001
593.00	-0.002
595.00	-0.002
597.00	-0.002
599.00	-0.001
601.00	-0.006
603.00	-0.006
605.00	-0.007
607.00	-0.011
609.00	-0.013
611.00	-0.011
613.00	-0.012
615.00	-0.015
617.00	-0.016
619.00	-0.017
621.00	-0.018
623.00	-0.016
625.00	-0.019
627.00	-0.019
629.00	-0.020
631.00	-0.021
633.00	-0.017
635.00	-0.022
637.00	-0.025
639.00	-0.023
641.00	-0.025
643.00	-0.025
645.00	-0.026
647.00	-0.026
649.00	-0.028
651.00	-0.029
653.00	-0.025
655.00	-0.027
657.00	-0.028
659.00	-0.027
661.00	-0.029
663.00	-0.028
665.00	-0.028
667.00	-0.030
669.00	-0.029
671.00	-0.031
673.00	-0.030
675.00	-0.033
677.00	-0.033
679.00	-0.032
681.00	-0.032
683.00	-0.029
685.00	-0.033
687.00	-0.031
689.00	-0.030
691.00	-0.032
693.00	-0.030
695.00	-0.033
697.00	-0.033
699.00	-0.032
701.00	-0.037
703.00	-0.037
705.00	-0.040
707.00	-0.041
709.00	-0.041
711.00	-0.043
713.00	-0.045
715.00	-0.044
717.00	-0.046
719.00	-0.047
721.00	-0.044
723.00	-0.045
725.00	-0.046
727.00	-0.044
729.00	-0.045
731.00	-0.048
733.00	-0.046
735.00	-0.048
737.00	-0.049
739.00	-0.048
741.00	-0.049
743.00	-0.048
745.00	-0.049
747.00	-0.047
749.00	-0.050
751.00	-0.049
753.00	-0.049
755.00	-0.049
757.00	-0.050
759.00	-0.048
761.00	-0.047
763.00	-0.048
765.00	-0.050
767.00	-0.048
769.00	-0.050
771.00	-0.051
773.00	-0.048
775.00	-0.049
777.00	-0.048
779.00	-0.051
781.00	-0.051
783.00	-0.049
785.00	-0.049
787.00	-0.051
789.00	-0.051
791.00	-0.050
793.00	-0.053
795.00	-0.049
797.00	-0.051
799.00	-0.049
800.00	-0.054